Folder: high-entropy-alloy-sims/Post Processing/With ZBL potential/Pure Ni

File: Ni_Tensile_5KeV.def1.txt
# Fix print output for fix def1
-7.16814e-16 0.0993362 -0.381207 0.286145
0.0008 0.0113234 -0.034071 0.501449
0.0016 0.0115104 -0.000118376 0.645555
0.0024 0.00764506 0.000689173 0.780912
0.0032 0.00526414 0.000765732 0.917683
0.004 0.000889711 0.00129701 1.05758
0.0048 -0.00779807 0.00603295 1.19925
0.0056 -0.00455483 0.00495235 1.34448
0.0064 -0.00336501 0.00468914 1.49255
0.0072 -0.00374542 0.0058818 1.64391
0.008 -0.000378407 0.00145633 1.79701
0.0088 -0.0030218 0.00324276 1.9507
0.0096 0.00329792 -0.000894529 2.10953
0.0104 0.00436871 -0.00327533 2.2696
0.0112 0.00239257 0.00210635 2.42653
0.012 0.00312046 0.000269327 2.59023
0.0128 0.00068667 0.00126206 2.75005
0.0136 0.00354868 -0.00293097 2.91496
0.0144 0.00708361 -0.00435686 3.08183
0.0152 0.00860273 -0.0101714 3.24812
0.016 0.0133316 -0.00980042 3.41824
0.0168 0.0103163 -0.00246534 3.5845
0.0176 0.00385556 0.00141325 3.75215
0.0184 0.00563166 -0.0021529 3.92456
0.0192 -0.00189146 0.000379559 4.08708
0.02 -0.00205442 0.00190739 4.25509
0.0208 -0.00257644 0.00195699 4.42398
0.0216 -0.00195159 0.000963665 4.59581
0.0224 -0.000661987 0.00340307 4.7641
0.0232 -0.000741055 0.00349513 4.92717
0.024 0.00322064 -0.00236506 5.09806
0.0248 0.0130017 -0.00527849 5.2677
0.0256 -0.000236931 0.00514841 5.42685
0.0264 -0.00198256 0.00700062 5.58789
0.0272 0.00394853 -0.00303739 5.75185
0.028 0.00625639 -0.0112946 5.91458
0.0288 -0.00430409 0.00384706 6.06729
0.0296 0.00116643 0.00374332 6.22791
0.0304 0.000920547 -0.000397797 6.3795
0.0312 -0.00307142 0.0038129 6.53626
0.032 0.000178676 0.00289976 6.67969
0.0328 0.00520751 -0.00176849 6.83466
0.0336 -0.00338375 0.00403367 6.9725
0.0344 0.00756305 -0.00233093 7.12117
0.0352 -0.00331044 0.00702002 7.24879
0.036 0.00261656 0.00268191 7.391
0.0368 0.00231601 -0.00346863 7.51989
0.0376 -0.00158845 0.000688156 7.64423
0.0384 0.00382393 -0.00257216 7.77179
0.0392 -0.00322882 0.000555901 7.88611
0.04 0.00622698 -0.00192177 8.00196
0.0408 0.00220767 0.00152295 8.1018
0.0416 0.00512166 -0.00540457 8.21208
0.0424 0.00193599 -0.00164401 8.30349
0.0432 0.00262908 -0.00216514 8.39152
0.044 0.00412724 -0.00321458 8.48041
0.0448 -0.00179949 -0.000504086 8.55344
0.0456 0.00719174 -0.00695243 8.64292
0.0464 0.00122273 -0.00134973 8.70803
0.0472 0.00553962 6.31837e-05 8.80824
0.048 -0.00164804 0.00219523 8.88502
0.0488 0.00546809 -0.00688064 8.9781
0.0496 0.00216694 -0.00226761 9.06098
0.0504 0.00432758 0.00049502 9.15798
0.0512 0.000659148 0.00428476 9.24852
0.052 0.00143391 -0.00381198 9.34619
0.0528 -0.00459111 0.00499558 9.43231
0.0536 0.0125828 -0.0065258 9.55075
0.0544 -0.00114678 -0.00136838 9.63468
0.0552 -0.00298449 0.00195552 9.7306
0.056 0.0059511 0.00123452 9.84033
0.0568 0.00363998 -0.00108692 9.93827
0.0576 -0.00362133 -0.00309829 10.0379
0.0584 0.00642763 0.00498562 10.1393
0.0592 0.00881593 -0.00533122 10.248
0.06 0.00117665 -0.00217616 10.3457
0.0608 -0.00213077 0.00732393 10.4456
0.0616 -0.00107094 0.00351551 10.5507
0.0624 0.00246061 -0.00156258 10.6561
0.0632 0.000463897 0.00198416 10.7599
0.064 -0.000831024 0.00127295 10.8599
0.0648 0.000612046 -0.00280469 10.9655
0.0656 0.00353128 0.000610529 11.0772
0.0664 -0.00905651 0.000306312 11.1734
0.0672 0.00156426 0.000529952 11.2842
0.068 -2.48103e-05 0.00220838 11.3871
0.0688 0.000659499 -0.000483841 11.4926
0.0696 0.00272613 -0.00149269 11.5971
0.0704 0.00262644 -0.00395329 11.7038
0.0712 -0.00229509 0.0013233 11.8104
0.072 -0.00661366 0.00911014 11.9121
0.0728 -0.00233887 -0.00148683 12.017
0.0736 -0.00199386 0.00252449 12.123
0.0744 -0.00174552 0.0011208 12.229
0.0752 -0.000576077 -0.00212505 12.333
0.076 -0.00082431 0.00630971 12.4408
0.0768 -0.00508392 0.00172638 12.5447
0.0776 -0.000456462 0.00455627 12.6515
0.0784 -0.00460679 0.000877024 12.7528
0.0792 -0.00144035 0.0040297 12.8593
0.08 -0.00135381 0.0038136 12.9635
0.0808 -0.0031751 -0.000731646 13.068
0.0816 -0.0011999 0.00361245 13.1722
0.0824 -0.000556561 -0.00163531 13.2764
0.0832 0.0039744 -0.00434251 13.3807
0.084 0.00262666 -0.000262035 13.4839
0.0848 -0.00100322 -0.000161052 13.587
0.0856 0.00437907 -0.0026552 13.6918
0.0864 -0.000471799 -0.00472264 13.7946
0.0872 0.00327449 0.00304177 13.8999
0.088 0.00117759 -0.00358006 14.001
0.0888 0.00367068 -0.00238387 14.1048
0.0896 0.00141628 -0.00303005 14.2072
0.0904 0.00160885 -0.00108708 14.3103
0.0912 -0.000881442 0.000869977 14.4114
0.092 -0.000555379 0.00291874 14.5175
0.0928 -0.00424861 0.00401265 14.6164
0.0936 -0.00624343 0.0033911 14.7164
0.0944 -0.00295941 0.0042822 14.8207
0.0952 -0.000332535 0.0011295 14.9232
0.096 0.000263581 -0.00257269 15.0261
0.0968 -0.00133985 0.0018304 15.1268
0.0976 0.00195291 0.000973267 15.231
0.0984 0.00136137 -0.00506894 15.3322
0.0992 0.00325083 -0.00153286 15.4332
0.1 0.00265038 -0.00376147 15.5362
0.1008 0.00508439 -0.00622947 15.6365
0.1016 0.00441345 -0.00536383 15.7357
0.1024 0.00514816 -0.00138075 15.8387
0.1032 0.000676303 -0.00386315 15.9356
0.104 0.00404283 -0.000611611 16.0417
0.1048 -0.000304287 -0.00324111 16.1399
0.1056 0.00319539 0.00054179 16.2399
0.1064 0.000561722 -0.00562427 16.3386
0.1072 0.00474582 -0.000240588 16.4414
0.108 -0.00245812 -0.00273431 16.5376
0.1088 -0.0013586 -8.60234e-05 16.6355
0.1096 -0.00315183 0.00203924 16.7308
0.1104 -3.48389e-05 -0.000899296 16.8322
0.1112 0.00174621 0.00234385 16.9272
0.112 -0.00332617 0.00128689 17.0211
0.1128 0.00310989 0.00088492 17.1185
0.1136 0.000383512 0.000361253 17.2028
0.1144 -0.00115452 0.00170728 17.2722
0.1152 -0.00187205 -0.00105901 17.3126
0.116 0.000673164 0.00228371 17.3041
0.1168 -0.000853091 -0.000746972 17.2361
0.1176 -0.0011885 0.00241927 17.0112
0.1184 0.0100549 0.00248402 16.5775
0.1192 -0.00238887 0.00551987 15.9977
0.12 0.0116032 0.00313393 15.2864
0.1208 0.00833782 0.00540286 14.4482
0.1216 -0.00426508 0.0028972 13.4179
0.1224 0.00102689 0.00401039 12.2175
0.1232 0.0150748 0.0205714 10.8638
0.124 0.0207105 -0.0136979 9.56082
0.1248 0.0260236 -0.0205768 8.34724
0.1256 0.0275955 -0.00915639 7.2259
0.1264 0.0179641 -0.0207323 6.33923
0.1272 0.0299256 -0.0137346 5.54351
0.128 0.0201834 -0.00127137 4.90184
0.1288 0.0121386 -0.000642926 4.32584
0.1296 -0.0116408 0.00747677 4.05453
0.1304 0.000297347 0.00917446 3.9373
0.1312 0.00656263 0.00632878 3.76457
0.132 0.00733903 -0.0156947 3.56192
0.1328 -0.000848865 -0.0046173 3.46948
0.1336 -1.25053e-05 -0.00672374 3.39773
0.1344 0.0133237 0.00362321 3.40222
0.1352 0.0131862 0.00902401 3.34705
0.136 0.00517747 0.00239433 3.3529
0.1368 -0.000559638 -0.00760421 3.32131
0.1376 -0.0165418 -0.00778802 3.29833
0.1384 0.00400575 -0.00590519 3.24758
0.1392 0.0121519 0.0134854 3.19017
0.14 0.000962092 0.0192817 3.14769
0.1408 -0.00847032 0.00240205 3.11079
0.1416 0.00507857 -0.0128613 3.12131
0.1424 0.00492317 -0.00600861 3.16028
0.1432 0.00701018 -0.0126646 3.17175
0.144 -0.0127761 -0.00841346 3.19509
0.1448 -0.00863604 0.000784108 3.18292
0.1456 0.00391117 0.00478577 3.20259
0.1464 0.00969045 0.00621507 3.19939
0.1472 -0.00360565 -0.00312135 3.14576
0.148 -0.000783883 0.00512141 3.09274
0.1488 -0.00148605 0.0100795 3.06962
0.1496 0.00177758 -0.00512908 3.0234
0.1504 0.00111333 -0.0144814 2.98824
0.1512 0.000693557 -0.00368105 3.0226
0.152 0.00822455 -0.000839145 3.06043
0.1528 0.00558831 0.00617248 3.08612
0.1536 0.00400849 -0.00749682 3.08355
0.1544 -0.000860357 -0.00157234 3.06125
0.1552 0.00478559 0.00619012 3.01861
0.156 0.00798808 0.00654211 2.97608
0.1568 -0.000866498 0.00565648 2.96838
0.1576 0.000618825 -0.00920337 3.00609
0.1584 -0.0112695 -0.00999033 3.08143
0.1592 0.0100878 0.0111381 3.12922
0.16 0.0105808 0.0142549 3.12989
0.1608 -0.00599098 -0.0155305 3.1922
0.1616 0.00169302 -0.00915876 3.26118
0.1624 0.012514 0.00313146 3.3099
0.1632 0.0122047 0.00225753 3.29984
0.164 0.000577414 -0.00417189 3.29682
0.1648 -0.00325854 0.00166763 3.31571
0.1656 0.0112622 0.00329065 3.31449
0.1664 -0.0116323 0.00453767 3.32777
0.1672 -0.0145428 0.00211287 3.34069
0.168 0.00426805 0.0113953 3.40166
0.1688 -0.00135067 0.0051936 3.44609
0.1696 -0.00131433 0.0138734 3.50869
0.1704 -0.00557332 0.0090554 3.56124
0.1712 -0.00581565 -0.000706317 3.6135
0.172 0.00191531 -0.00144391 3.65544
0.1728 -0.000363249 -0.00806068 3.68694
0.1736 0.0047103 -0.00838225 3.71708
0.1744 0.000963977 -0.00849149 3.73473
0.1752 -0.001881 -0.00421799 3.77099
0.176 0.00841257 0.000906448 3.84758
0.1768 0.00529832 0.00221059 3.8927
0.1776 0.000277875 0.00265087 3.92713
0.1784 0.00257457 0.0144914 3.97437
0.1792 0.00155993 0.0147513 4.02297
0.18 -0.00986464 -0.00701424 4.04491
0.1808 -0.00681984 -0.00831564 4.06773
0.1816 0.00792351 0.00661631 4.07867
0.1824 0.00190565 0.0110186 4.06158
0.1832 -0.0035617 0.00195279 4.02653
0.184 0.000441377 0.000877916 4.00927
0.1848 -0.00547284 -0.000388197 4.02208
0.1856 0.0125859 -0.0044868 4.03284
0.1864 0.00591774 -0.00147815 4.0742
0.1872 -0.00678517 -0.000805038 4.10526
0.188 0.00765222 0.000637949 4.13746
0.1888 -0.00678426 -0.000261658 4.17069
0.1896 0.00817883 -0.00341869 4.22609
0.1904 -0.00568483 -0.00793081 4.29304
0.1912 -0.00268228 -0.00570931 4.3716
0.192 -0.00503953 0.00484416 4.43665
0.1928 0.0051445 0.00833691 4.48727
0.1936 -0.0024278 -0.00348833 4.51419
0.1944 -0.00256184 0.0120311 4.55404
0.1952 -0.00497739 0.00676877 4.56778
0.196 -0.00223055 -0.00489463 4.57034
0.1968 -0.00585771 0.00274413 4.60728
0.1976 -0.011153 -0.00465868 4.63228
0.1984 -0.00255635 0.00304323 4.66158
0.1992 0.0080136 0.00937887 4.71715
0.2 -0.00177881 0.0051155 4.79053