Folder: high-entropy-alloy-sims/Post Processing/Pure Ni/With_FeCrCoNiCu_Potential

File: Ni_Tensile_5KeV.def1.txt
# Fix print output for fix def1
2.86709e-15 0.16158 -0.323221 0.360154
0.0008 0.0159015 -0.0305466 0.526763
0.0016 0.011069 -0.00202017 0.66935
0.0024 0.00367876 0.00502881 0.808007
0.0032 -0.00342239 0.00691522 0.940198
0.004 -0.0047387 0.00512519 1.0821
0.0048 -0.00782629 0.00762693 1.21674
0.0056 -0.00439112 0.00806419 1.37112
0.0064 -0.00441214 0.0064289 1.51404
0.0072 -0.00196814 0.00105958 1.65965
0.008 0.00187749 -0.00169989 1.81842
0.0088 0.000292123 -0.000326651 1.97297
0.0096 -0.00142328 0.00151933 2.1283
0.0104 -0.00184466 0.00288859 2.2784
0.0112 0.000499287 -0.00169263 2.44189
0.012 -0.00050023 -0.00148828 2.60433
0.0128 -0.00175349 0.000896709 2.76386
0.0136 -0.00700718 0.00148173 2.92484
0.0144 -0.00270061 0.00320703 3.09886
0.0152 -0.00166933 0.00134844 3.26101
0.016 0.00142165 -6.0255e-05 3.42577
0.0168 -0.00345013 0.00337288 3.5937
0.0176 -0.00636517 0.00754905 3.76268
0.0184 -0.0057954 0.0079475 3.9278
0.0192 -0.00568186 0.00696238 4.09444
0.02 -0.00405049 0.00805779 4.26731
0.0208 -0.0075559 0.00665889 4.43293
0.0216 0.00060236 0.000196886 4.59921
0.0224 -0.00204889 0.000694985 4.76856
0.0232 -0.00210544 0.00434519 4.93663
0.024 -0.00538421 0.0062991 5.10284
0.0248 0.00339963 -0.0004334 5.265
0.0256 0.0090378 -0.000167615 5.43352
0.0264 -0.00203883 0.0082297 5.59363
0.0272 -0.00585464 0.00848674 5.75377
0.028 0.00743389 -0.0041979 5.91381
0.0288 0.00928405 -0.00754846 6.07432
0.0296 -0.00576278 0.00697675 6.22867
0.0304 -0.00085388 0.00649046 6.38013
0.0312 0.00244392 -0.00320428 6.5337
0.032 0.00169812 -0.00117418 6.67967
0.0328 -0.0055121 0.00280865 6.8216
0.0336 0.00193576 -0.0033224 6.97831
0.0344 -0.000496301 0.000708577 7.11339
0.0352 0.00201286 0.000968096 7.25195
0.036 -0.00185802 0.00106351 7.37897
0.0368 0.00974462 -0.00402726 7.5184
0.0376 0.000311528 0.0020331 7.63747
0.0384 0.00207084 -0.00352871 7.77212
0.0392 0.00336772 -0.00466025 7.88621
0.04 0.000627342 -0.000641322 7.98776
0.0408 0.00437857 -0.000416324 8.10236
0.0416 0.00577916 -0.00255886 8.20938
0.0424 0.00843806 -0.00239656 8.2991
0.0432 0.00124055 0.00150276 8.37937
0.044 0.00313637 -0.00129421 8.47833
0.0448 0.00480552 -0.00129888 8.55944
0.0456 0.00602117 -0.00277449 8.64059
0.0464 0.00171841 0.00104045 8.71435
0.0472 0.00358369 -0.000175892 8.8142
0.048 0.00019954 0.000926376 8.8833
0.0488 0.00601684 -0.00475308 8.9741
0.0496 -0.00126295 0.00192048 9.07021
0.0504 0.00680933 -0.00466774 9.17162
0.0512 -0.00238917 0.00583285 9.25367
0.052 -0.00366238 -0.00140323 9.34341
0.0528 0.0063578 -0.00964218 9.46063
0.0536 0.00128187 0.00494635 9.54696
0.0544 0.00467769 -0.00341944 9.64664
0.0552 -0.00467779 -0.00089135 9.74411
0.056 -0.00656957 0.0100944 9.84472
0.0568 0.0067205 -0.00363397 9.95594
0.0576 -0.00061083 -0.00054503 10.0492
0.0584 0.00341252 -0.000213249 10.1521
0.0592 0.00433139 -0.00322298 10.2581
0.06 -0.00104539 0.00399562 10.3563
0.0608 -0.00435129 0.00637163 10.4586
0.0616 -0.0047915 0.00659922 10.5606
0.0624 0.00754109 -0.00714784 10.6739
0.0632 0.00947693 -0.0048208 10.7784
0.064 -0.00338622 -0.000198809 10.8711
0.0648 0.00217044 -0.00104148 10.9839
0.0656 -0.0036109 -6.53219e-05 11.0847
0.0664 -0.00305426 0.00292911 11.1902
0.0672 -0.00126684 0.000751529 11.2972
0.068 0.000950161 -0.0024524 11.4019
0.0688 0.00801573 -0.00446072 11.5099
0.0696 -0.00135104 -0.00116478 11.6088
0.0704 0.00196905 0.00416124 11.7203
0.0712 -0.00729892 0.00111122 11.8203
0.072 -0.00456921 0.00746918 11.9246
0.0728 0.00234352 -0.00220849 12.0359
0.0736 0.00309006 -0.0047418 12.1372
0.0744 0.00675589 -0.00570333 12.2459
0.0752 0.0023518 -0.00319139 12.348
0.076 0.000544715 0.00241464 12.4557
0.0768 -0.00552103 0.00377932 12.5551
0.0776 -0.00588009 0.00554542 12.658
0.0784 -0.00248652 -0.00166492 12.7658
0.0792 0.00352084 -0.000382315 12.8713
0.08 0.000830451 -0.00249589 12.9758
0.0808 0.0053887 -0.00424259 13.0831
0.0816 0.00421052 -0.000498244 13.1862
0.0824 -0.00285576 -0.00210171 13.2862
0.0832 0.00366394 -0.0035683 13.3948
0.084 -0.000925586 -0.000434692 13.4955
0.0848 0.00189141 0.00181432 13.6007
0.0856 -0.000957455 0.000779401 13.7053
0.0864 -0.00305291 0.00474074 13.806
0.0872 -0.00249791 0.00155894 13.9089
0.088 -0.00313022 -0.00219622 14.0129
0.0888 0.00682699 -0.00219189 14.1181
0.0896 0.00461735 -0.00416801 14.2225
0.0904 0.00480621 -0.00279461 14.3241
0.0912 0.00511827 -0.00233261 14.4296
0.092 -0.00198535 0.00277562 14.528
0.0928 -0.00527204 0.00613575 14.6285
0.0936 -0.00244671 0.00378585 14.733
0.0944 -0.00182587 0.00233696 14.8352
0.0952 0.00104349 -0.00701087 14.9385
0.096 0.00733749 -0.00677965 15.0439
0.0968 0.00618723 -0.00352856 15.1446
0.0976 0.00368522 -0.00076687 15.243
0.0984 -0.00306084 0.00188356 15.342
0.0992 -0.00593963 0.00650652 15.4319
0.1 -0.00370361 0.00442051 15.52
0.1008 -0.000858701 0.00204174 15.5855
0.1016 0.00144367 -0.00481727 15.6235
0.1024 0.00556889 -8.79604e-05 15.6177
0.1032 0.00343321 -0.00168905 15.5544
0.104 0.00137422 -0.000268574 15.4695
0.1048 -0.00157561 0.00605478 15.3113
0.1056 -0.00252817 0.00456141 15.0849
0.1064 0.0117454 -0.011115 14.8368
0.1072 0.00338246 0.00179608 14.565
0.108 0.000369368 0.00477133 14.2324
0.1088 0.00336989 0.00730368 13.7764
0.1096 -0.00595929 -0.00109641 13.4546
0.1104 0.00728353 -0.000372153 13.0687
0.1112 0.0095658 -0.00367424 12.5919
0.112 -0.0340431 0.0323998 11.9663
0.1128 -0.00237752 0.00622866 11.4549
0.1136 -0.00409353 0.00678914 10.8513
0.1144 0.0208295 -0.00631153 10.2394
0.1152 0.0104516 -0.0241124 9.53386
0.116 0.0242336 -0.00911999 8.91918
0.1168 0.0167978 0.00435388 8.24676
0.1176 0.00931715 0.013439 7.69032
0.1184 0.0228001 0.00277602 7.23748
0.1192 0.0183563 -0.017852 6.8237
0.12 0.00439524 -0.00576761 6.47136
0.1208 0.00243447 0.0150022 6.26981
0.1216 -0.00172629 0.00157926 6.03995
0.1224 0.00908808 0.00103822 5.85582
0.1232 0.00772144 0.0058253 5.60743
0.124 0.00186822 -0.00421911 5.41222
0.1248 0.0164103 -0.0230154 5.15588
0.1256 0.0158317 -0.0132558 5.12588
0.1264 0.00247637 0.00339003 5.20161
0.1272 0.00812819 0.00826854 5.27076
0.128 0.000276011 0.00465345 5.33679
0.1288 -0.0105199 0.00524791 5.42849
0.1296 -0.0141476 0.019181 5.51228
0.1304 -0.00444924 0.0049527 5.57635
0.1312 0.00138047 0.00384883 5.61081
0.132 0.00814531 -0.0112907 5.65691
0.1328 0.0229622 0.00501634 5.69636
0.1336 0.0163918 -0.00507504 5.73477
0.1344 0.000836903 -0.0102082 5.75861
0.1352 -0.00315675 0.0120105 5.72996
0.136 -0.00797432 0.00142158 5.6349
0.1368 -0.00851348 0.00140041 5.51291
0.1376 0.00820445 0.0130481 5.3763
0.1384 -0.0100712 0.00844667 5.20796
0.1392 -0.00733569 -0.00191405 5.07417
0.14 -0.00857443 0.00774463 5.00636
0.1408 0.00824746 0.000671533 4.95447
0.1416 -0.00477545 -0.000464053 4.93926
0.1424 -0.0147202 -0.00304362 4.92424
0.1432 0.000970831 0.0184053 4.94407
0.144 0.00229651 0.00410937 4.93233
0.1448 -0.0060601 0.00204989 4.91058
0.1456 -0.00683553 -0.00398638 4.94952
0.1464 -0.00920801 -0.00813582 4.97656
0.1472 0.00795307 0.00510979 5.01486
0.148 0.00182389 0.00794299 4.99243
0.1488 -0.00421691 -0.00487753 4.9463
0.1496 -0.00738017 0.00678697 4.89131
0.1504 0.00845895 0.01621 4.85424
0.1512 -0.0113118 0.00191117 4.79308
0.152 -0.0136073 0.00480686 4.68752
0.1528 -0.00145694 -0.00162361 4.59739
0.1536 0.0253929 0.00471615 4.55102
0.1544 0.010802 0.00876087 4.46833
0.1552 0.00401737 -0.00229648 4.33967
0.156 0.000335664 0.00055842 4.20251
0.1568 -0.000262626 -0.000494585 4.12142
0.1576 0.00113722 -0.000880843 4.0333
0.1584 0.00677787 0.00786023 3.91049
0.1592 0.00304951 0.00743943 3.8041
0.16 -0.00605528 -0.0101684 3.64357
0.1608 -0.00708312 0.00103799 3.57352
0.1616 0.00984913 0.00849043 3.51272
0.1624 0.00457419 0.00775408 3.4424
0.1632 0.00664721 -0.0020097 3.35635
0.164 -0.00577008 -0.0105318 3.29585
0.1648 0.0164474 0.00186395 3.27442
0.1656 0.00371576 0.00072886 3.25795
0.1664 -5.22141e-06 -0.00711869 3.22374
0.1672 0.00744933 -0.00673503 3.2279
0.168 0.0140793 -0.000193361 3.24413
0.1688 0.00465594 -0.00886012 3.24184
0.1696 0.00142991 -0.00654821 3.2517
0.1704 0.00114488 0.00140351 3.2454
0.1712 0.00417616 0.00548559 3.22882
0.172 0.00564786 0.0011601 3.19265
0.1728 0.00157088 -0.0034977 3.16457
0.1736 -5.74403e-05 -0.00972111 3.13209
0.1744 0.00499806 -0.00543163 3.0941
0.1752 0.024934 0.000920077 3.05415
0.176 -0.0011885 -0.00364839 2.99052
0.1768 0.000188344 -0.0133419 2.91065
0.1776 0.00619407 -0.00586692 2.79624
0.1784 -0.000622256 0.00113091 2.64545
0.1792 0.00193791 -0.00579392 2.55566
0.18 0.00166706 -0.00475636 2.50621
0.1808 -0.00512623 0.00453854 2.51128
0.1816 0.000338729 0.0107725 2.50826
0.1824 -0.00741099 0.00152692 2.50684
0.1832 -0.00692899 0.0032115 2.52249
0.184 -0.00287823 -0.00405941 2.57683
0.1848 0.0126131 -0.00616639 2.63051
0.1856 0.00911689 -0.0129934 2.6638
0.1864 -0.00485316 -0.0142989 2.70547
0.1872 0.00123436 0.00040301 2.76432
0.188 -0.0107691 0.01244 2.82034
0.1888 -0.0109683 0.0010693 2.89412
0.1896 -0.00926065 0.00631669 2.9759
0.1904 0.00415779 0.00917241 3.06964
0.1912 0.0013564 -0.00345581 3.12049
0.192 -0.0044801 -0.00630801 3.18406
0.1928 0.00387687 -0.00479566 3.27404
0.1936 0.010667 0.000995473 3.35542
0.1944 0.00199754 0.00455319 3.42496
0.1952 -0.00129636 -0.000767179 3.45507
0.196 0.00594589 -0.00433904 3.50282
0.1968 0.00724668 0.0037023 3.54998
0.1976 -0.0059788 -0.00508606 3.61565
0.1984 -0.00960042 -0.00361741 3.72028
0.1992 4.57824e-05 0.0162731 3.89341
0.2 -0.00593181 0.00372363 4.03921