Folder: high-entropy-alloy-sims/Tensile Tests/NiCoCrFe/X Direction PKA Tensile Test

File: NiCoCrFe_Tensile_5KeV.def1.txt
# Fix print output for fix def1
1.77636e-16 0.0175326 0.0164125 0.0134898
0.0008 -0.00758192 -0.003884 0.09938
0.0016 -0.00730697 -0.00712515 0.205573
0.0024 -0.00170238 -0.00401746 0.318654
0.0032 0.00893835 0.0117532 0.441088
0.004 -0.00603969 0.00531278 0.53641
0.0048 -0.01069 -0.00789912 0.63545
0.0056 -0.0167134 -0.0125009 0.745593
0.0064 0.0148074 0.0110481 0.870536
0.0072 -0.000188726 0.00321354 0.955904
0.008 -0.00411731 -0.00727813 1.07445
0.0088 -0.0105877 -0.0135967 1.16553
0.0096 -0.0216905 -0.0282092 1.26766
0.0104 -0.0150828 -0.0198127 1.37234
0.0112 -0.0061383 0.00671399 1.49594
0.012 -0.0126546 -0.0143029 1.59133
0.0128 0.0314546 0.0248579 1.72777
0.0136 0.000287349 -0.00791138 1.80478
0.0144 0.00207238 -0.0044646 1.91177
0.0152 -0.0232721 -0.0249877 2.00573
0.016 0.00478621 0.00346388 2.12687
0.0168 0.0190168 0.016523 2.23956
0.0176 0.0093214 0.00664685 2.33784
0.0184 -0.000882044 -0.00509138 2.44124
0.0192 0.0204194 0.00890321 2.55198
0.02 0.00503222 0.0112635 2.64934
0.0208 0.00465814 0.00952947 2.74736
0.0216 -0.0234239 -0.024544 2.83243
0.0224 0.00280779 -0.00198526 2.95429
0.0232 0.0168967 0.0184458 3.0699
0.024 -0.0149504 -0.0106869 3.14582
0.0248 -0.0219818 -0.0172857 3.23611
0.0256 0.00498853 0.00178952 3.35456
0.0264 0.0134206 0.00556763 3.45322
0.0272 -0.0179635 -0.0173317 3.53216
0.028 -0.00206804 0.000772862 3.65008
0.0288 -0.024896 -0.0257522 3.73054
0.0296 0.00537587 0.0139892 3.85156
0.0304 -0.00667637 -0.00390403 3.94846
0.0312 0.0248454 0.0282698 4.0609
0.032 -0.00930233 -0.00951505 4.13062
0.0328 -0.000120429 -0.00116728 4.23635
0.0336 0.0122133 0.0133952 4.34116
0.0344 -0.0026326 -0.00374623 4.42305
0.0352 -0.00159832 -0.00367045 4.52021
0.036 0.00639144 -0.00964314 4.61126
0.0368 0.000742013 0.00200281 4.71438
0.0376 0.00253546 0.00687727 4.8044
0.0384 0.00195747 0.0102618 4.89574
0.0392 -0.0228436 -0.0105195 4.97579
0.04 0.0175343 0.0132369 5.09461
0.0408 0.00304889 0.000549527 5.17747
0.0416 -0.00398046 -0.00353388 5.2697
0.0424 0.0010282 -0.00382223 5.35801
0.0432 -0.000918856 0.00855395 5.44977
0.044 -0.0104755 -0.0070232 5.53161
0.0448 0.0232371 0.0142381 5.6321
0.0456 0.00853503 0.0102773 5.72735
0.0464 0.00265658 0.00666318 5.80866
0.0472 0.00502526 0.00231518 5.89867
0.048 -0.00971095 -0.0184842 5.98377
0.0488 0.00701169 0.0105254 6.07932
0.0496 -0.000923613 0.000354731 6.16524
0.0504 0.0025998 0.00783043 6.26388
0.0512 0.0173493 0.0136216 6.35883
0.052 0.00170116 0.00506545 6.43024
0.0528 0.00224723 0.0026155 6.52848
0.0536 -0.00228983 -0.00246562 6.61335
0.0544 0.0123038 0.011591 6.70519
0.0552 -0.0188465 -0.0102703 6.77341
0.056 -0.0115507 -0.0148196 6.86425
0.0568 0.00678731 -0.000375625 6.96138
0.0576 -0.00549353 0.00397983 7.05014
0.0584 -0.00612548 -0.000321803 7.13794
0.0592 0.0142056 0.00951844 7.23113
0.06 -0.00747785 -0.00277167 7.30132
0.0608 0.00027551 0.0039771 7.3996
0.0616 0.0290659 0.0273576 7.50433
0.0624 -0.032479 -0.0317917 7.54399
0.0632 0.00918894 0.0159469 7.65416
0.064 -0.00535238 -0.0111566 7.73823
0.0648 0.000508454 -0.00123846 7.82956
0.0656 -0.00832153 -0.00807189 7.905
0.0664 0.0012027 -0.00516454 7.99872
0.0672 -0.0135637 0.00319045 8.09515
0.068 0.0207614 0.00634125 8.18317
0.0688 0.0167616 0.00759932 8.27173
0.0696 -0.0107523 -0.00658169 8.35008
0.0704 0.0107544 0.00108175 8.43826
0.0712 0.00133945 0.00272988 8.53221
0.072 0.0195816 0.019805 8.62772
0.0728 -0.0107916 -0.0163425 8.69337
0.0736 0.0132233 0.0175142 8.79897
0.0744 -0.0109599 -0.00772056 8.87156
0.0752 -0.0108513 -0.00816097 8.97265
0.076 0.00266883 -0.0004212 9.05588
0.0768 -0.000865451 -0.00907498 9.13805
0.0776 -0.00386099 -0.00390322 9.22526
0.0784 -0.00541938 -0.00909944 9.31213
0.0792 0.0216419 0.0211375 9.41989
0.08 -0.00163458 -0.00259353 9.49135
0.0808 0.0113552 0.0152698 9.59329
0.0816 -0.0240395 -0.0173965 9.6606
0.0824 -0.0118291 -0.00190243 9.75104
0.0832 0.0167997 0.0150617 9.85183
0.084 -0.00132949 -0.00688967 9.93764
0.0848 0.00475832 0.00280842 10.0217
0.0856 0.00756007 0.00390555 10.115
0.0864 0.00758764 0.0140908 10.2039
0.0872 -0.0132803 -0.0121514 10.2897
0.088 -0.0062201 -0.0117519 10.3678
0.0888 0.0241654 0.0214125 10.4818
0.0896 -0.0288052 -0.0262172 10.5514
0.0904 0.0219592 0.0238246 10.6631
0.0912 -0.00530231 -0.00196121 10.7412
0.092 0.00868094 0.00850533 10.8339
0.0928 0.0104958 0.00855529 10.9254
0.0936 -0.0166523 -0.0167644 10.9996
0.0944 0.0178755 0.0214228 11.1198
0.0952 -0.0308467 -0.0231634 11.1801
0.096 0.0144819 0.0136654 11.2884
0.0968 -0.0207923 -0.0177626 11.3657
0.0976 0.0184719 0.0160236 11.4722
0.0984 -0.0122591 -0.0089429 11.5518
0.0992 0.0116024 0.0181789 11.6565
0.1 -0.0188454 -0.026588 11.7245
0.1008 0.0150465 0.0154791 11.8394
0.1016 0.0115803 0.012278 11.9269
0.1024 0.00309664 -0.000339107 12.0146
0.1032 -0.00687739 -0.00100667 12.1091
0.104 -0.0144522 -0.0109999 12.1962
0.1048 -0.00462609 -0.00717153 12.2996
0.1056 0.015107 0.0180994 12.3899
0.1064 -0.0264843 -0.0226565 12.4696
0.1072 0.0247487 0.0226046 12.5875
0.108 -0.0105094 -0.00208861 12.6699
0.1088 0.00310279 -0.000579098 12.77
0.1096 8.19208e-05 -0.000606991 12.8584
0.1104 -0.0135407 -0.0204354 12.9496
0.1112 0.01972 0.0179484 13.0526
0.112 -0.0230856 -0.0167762 13.1393
0.1128 0.0136357 0.0224195 13.2391
0.1136 -0.010772 -0.0174004 13.3271
0.1144 0.0136413 0.0111807 13.432
0.1152 0.00183236 -0.00700772 13.519
0.116 0.0214111 0.0205708 13.6197
0.1168 -0.0093413 -0.0155498 13.7101
0.1176 0.011765 0.0117153 13.8121
0.1184 0.015319 0.00264804 13.9072
0.1192 -0.025904 -0.0165983 13.9804
0.12 -0.00620056 -0.00848862 14.0885
0.1208 0.0148262 0.0147512 14.196
0.1216 -0.00277112 0.000692771 14.2849
0.1224 0.00157894 -0.000983707 14.3825
0.1232 0.0112092 0.0167693 14.4761
0.124 -0.0194703 -0.0209699 14.5638
0.1248 0.00658487 0.00597823 14.6753
0.1256 -6.16228e-05 -0.00113298 14.7579
0.1264 0.00548413 0.00250585 14.8631
0.1272 0.019301 0.0203109 14.9595
0.128 0.010634 0.00564353 15.0535
0.1288 -0.0030789 -0.00242867 15.1492
0.1296 0.000466097 0.0085014 15.2474
0.1304 -0.0239056 -0.0257648 15.331
0.1312 2.13028e-05 0.00250834 15.4442
0.132 0.00994269 0.0104437 15.5321
0.1328 -0.00196847 -0.000809563 15.6013
0.1336 0.00298927 0.00980483 15.6719
0.1344 -0.00176964 0.00373361 15.7053
0.1352 -0.0105119 -0.0157818 15.7271
0.136 0.0132646 0.0110368 15.7347
0.1368 -0.00518334 -0.00400166 15.6494
0.1376 -0.00304303 0.021224 15.4549
0.1384 0.0062999 0.00958303 15.0534
0.1392 2.70837e-05 0.00652762 14.4278
0.14 0.00700277 0.00915362 13.6675
0.1408 0.00586241 0.0220733 12.6297
0.1416 0.0238012 3.33278e-05 11.3585
0.1424 0.00311645 0.0252276 10.0412
0.1432 -0.0205194 0.0238489 8.6984
0.144 0.00328163 0.00229045 7.35176
0.1448 0.0277254 0.0404309 6.09189
0.1456 -0.00101356 0.00696904 5.1195
0.1464 -0.000108418 -0.00030913 4.33079
0.1472 0.029152 0.00263862 3.82152
0.148 0.0155075 0.00872124 3.50025
0.1488 0.0105453 0.0307985 3.31928
0.1496 0.0140665 0.0210207 3.21844
0.1504 -0.00311568 -0.00146928 3.14035
0.1512 0.0161153 0.00795246 2.99983
0.152 0.000424181 -0.00572749 2.86768
0.1528 -0.00228452 -0.020339 2.70776
0.1536 0.0155317 0.00816758 2.63426
0.1544 0.00162657 0.00202012 2.62399
0.1552 0.0222405 0.0251194 2.62485
0.156 0.0152419 0.0112519 2.58382
0.1568 7.30646e-05 -0.00122183 2.54924
0.1576 -0.0031431 -0.00106305 2.51766
0.1584 0.00781472 0.0189091 2.51623
0.1592 0.00172277 0.0150805 2.50324
0.16 -0.00852903 -0.0208446 2.48439
0.1608 0.00305846 -0.00303608 2.45814
0.1616 -0.000126351 -0.00845569 2.40237
0.1624 0.00523048 0.0179277 2.39142
0.1632 0.0210831 0.0236677 2.39698
0.164 -0.00886852 -0.00533801 2.35581
0.1648 -0.0141236 0.00711073 2.35253
0.1656 0.0094544 0.0105995 2.38828
0.1664 0.0016114 -0.00325993 2.39044
0.1672 -9.515e-05 -0.00614652 2.41119
0.168 -0.0205885 -0.0189588 2.44842
0.1688 -0.0012397 0.0185303 2.47071
0.1696 0.00206029 -0.00742226 2.5373
0.1704 0.00277902 -0.00958381 2.55989
0.1712 0.019093 0.0119764 2.61566
0.172 -0.0158215 -0.00518487 2.66901
0.1728 0.025824 0.0241087 2.72913
0.1736 0.000988486 -0.0021364 2.74323
0.1744 -0.0178787 -0.0197725 2.74371
0.1752 -0.00494406 -0.00552496 2.78975
0.176 0.00742318 0.00635522 2.8143
0.1768 -0.0305605 -0.0151483 2.81446
0.1776 -0.00414879 0.00125434 2.87601
0.1784 0.0286245 0.0354949 2.93833
0.1792 0.0217454 0.0163616 2.94073
0.18 -0.00819902 -0.0066837 2.92672
0.1808 0.0224895 0.0169504 2.96326
0.1816 0.00655251 -2.66967e-05 2.94849
0.1824 -0.00532634 -0.000468908 2.95316
0.1832 -0.0151679 -0.00651487 2.95352
0.184 -0.0111128 0.021241 2.95962
0.1848 0.00171832 0.00156622 2.97286
0.1856 -0.0282386 -0.0325171 2.96523
0.1864 0.0137514 0.01349 3.05716
0.1872 0.0380671 0.0238491 3.10121
0.188 0.00802123 0.00572256 3.11817
0.1888 0.0112044 0.0159797 3.12934
0.1896 -0.0101944 -0.0102067 3.17272
0.1904 0.00918133 -0.00298631 3.20161
0.1912 -0.0245607 -0.0204238 3.21539
0.192 0.0265131 0.0152327 3.27119
0.1928 0.0125466 0.00582475 3.28233
0.1936 0.00568415 -0.0145462 3.28082
0.1944 -0.0274485 -0.026749 3.3083
0.1952 0.0313382 0.0271525 3.34272
0.196 -0.00431024 -0.00233737 3.36317
0.1968 -0.00139317 -0.0245193 3.40487
0.1976 0.00157246 0.00250349 3.45815
0.1984 -0.00112974 -2.77811e-05 3.46299
0.1992 -0.00528734 -0.00943317 3.4936
0.2 0.0136868 -0.00382068 3.51342