Folder: high-entropy-alloy-sims/Tensile Tests/NiCoCrFe/Z Direction PKA Tensile Test

File: NiCoCrFe_Tensile_5KeV.def1.txt
# Fix print output for fix def1
1.77638e-16 0.0153759 0.0138356 0.00992825
0.0008 -0.00143363 0.0154202 0.115834
0.0016 0.00164465 0.0105261 0.218378
0.0024 -0.00161452 0.00693383 0.326113
0.0032 -0.028104 -0.0229174 0.412197
0.004 -0.0206007 -0.00824126 0.529264
0.0048 0.0208081 0.0211369 0.65858
0.0056 0.0010572 -0.00462985 0.747031
0.0064 0.00211065 0.0103038 0.859056
0.0072 -0.00482081 -0.0140922 0.948385
0.008 -0.00917674 -0.00135806 1.06457
0.0088 0.00574581 0.00179545 1.17996
0.0096 0.00589515 0.00999831 1.29112
0.0104 0.00341396 0.00996663 1.39517
0.0112 0.00915527 0.0110249 1.50354
0.012 -0.00167769 0.00426897 1.60602
0.0128 0.000417052 0.00109015 1.70846
0.0136 -0.000718064 -0.00392923 1.81381
0.0144 0.00269374 0.00465187 1.92411
0.0152 -0.00271242 -0.0018773 2.02646
0.016 0.00417471 0.00576668 2.12931
0.0168 -0.0276226 -0.0166578 2.21656
0.0176 0.00726493 0.0119796 2.34362
0.0184 0.00128149 0.00473658 2.44674
0.0192 -0.00179142 0.0116414 2.54273
0.02 -0.00955262 -0.00270009 2.64206
0.0208 -0.00615247 -0.00380282 2.74674
0.0216 0.015435 0.0181091 2.8551
0.0224 -0.00509798 0.00118468 2.95836
0.0232 -0.0195637 -0.0126358 3.04671
0.024 -0.00437912 0.00253372 3.14826
0.0248 0.0117644 0.0194789 3.26113
0.0256 -0.00209584 0.00169533 3.3519
0.0264 0.011187 2.99918e-05 3.45163
0.0272 0.00409227 0.00363683 3.5525
0.028 -0.0115719 -0.0141038 3.64383
0.0288 -0.000161995 0.00744619 3.75864
0.0296 0.021018 0.023776 3.86659
0.0304 -0.0217194 -0.0154498 3.94227
0.0312 -0.0152389 -0.0204335 4.0305
0.032 0.00630135 0.0148355 4.14074
0.0328 0.000373412 0.00845688 4.24064
0.0336 0.0152416 0.0236827 4.34645
0.0344 -0.0145055 -0.0138612 4.41389
0.0352 0.0040561 0.0161935 4.52808
0.036 -0.00812015 -0.00707235 4.61763
0.0368 0.00513504 0.00451723 4.71637
0.0376 0.00356097 0.0107962 4.80755
0.0384 -0.00565509 0.0019661 4.89196
0.0392 0.0074824 0.0251988 5.00055
0.04 -0.00415557 -0.0123675 5.07586
0.0408 0.0150596 -0.00150201 5.1895
0.0416 0.0161459 0.0146698 5.27563
0.0424 -0.0014928 0.019213 5.36988
0.0432 -0.0118029 -0.00043834 5.44738
0.044 0.00470374 0.00697291 5.54864
0.0448 0.0283658 0.0218049 5.64398
0.0456 -0.00432605 -0.0136914 5.72009
0.0464 0.00601572 0.0107586 5.80889
0.0472 0.00439156 0.0114957 5.90642
0.048 -0.0100812 -0.00157847 5.98463
0.0488 0.012356 0.0123317 6.08974
0.0496 0.0181249 0.0113873 6.17759
0.0504 -0.0185841 -0.0087629 6.25148
0.0512 0.000169781 -0.00560871 6.34116
0.052 0.00118562 -0.00488006 6.42744
0.0528 -0.00476963 0.00150097 6.52471
0.0536 0.0111351 0.0188128 6.6213
0.0544 -0.0111482 -0.00682489 6.69274
0.0552 -0.0026719 -0.00205784 6.78672
0.056 -0.0069032 -0.0112717 6.85779
0.0568 -0.0188465 -0.0161749 6.94885
0.0576 -0.00265301 0.00792669 7.05194
0.0584 0.0103003 0.00309061 7.12795
0.0592 0.00196576 -0.00498255 7.2245
0.06 0.00137994 0.00123229 7.31389
0.0608 -0.0105707 0.00143485 7.39933
0.0616 0.0127856 0.00462663 7.49751
0.0624 0.00795953 0.00903178 7.58228
0.0632 -0.0420447 -0.0411202 7.63446
0.064 0.0311637 0.035557 7.77009
0.0648 0.010667 0.01228 7.83962
0.0656 -0.0102477 -0.00770354 7.91228
0.0664 0.0154981 0.00571076 8.01298
0.0672 0.00281114 -0.00521397 8.10178
0.068 -0.017928 -0.00846154 8.17621
0.0688 0.0143 0.00833667 8.27121
0.0696 0.00795335 0.00783185 8.36267
0.0704 -0.00974926 -0.0101891 8.43528
0.0712 0.00236114 -0.00100622 8.53164
0.072 -0.00422397 0.00481109 8.61676
0.0728 -0.0207854 -0.0114694 8.695
0.0736 0.0244661 0.0186676 8.80122
0.0744 -0.0198709 -0.0136483 8.8681
0.0752 0.0104484 0.016054 8.97801
0.076 -0.005562 -0.00687618 9.05385
0.0768 -0.0166173 -0.0213195 9.13088
0.0776 0.0137839 0.0128095 9.24132
0.0784 0.00116775 -0.0065975 9.31603
0.0792 0.00563151 0.014056 9.4167
0.08 -0.00853208 0.00152391 9.49408
0.0808 -0.00312225 -0.000390363 9.58315
0.0816 0.0163839 0.0136876 9.68443
0.0824 0.022377 0.0263326 9.77332
0.0832 -0.0132806 -0.013815 9.85191
0.084 0.0134485 0.0176794 9.9423
0.0848 -0.0105333 -0.00894998 10.021
0.0856 -0.00468381 -0.00585386 10.1132
0.0864 0.0146109 0.0196373 10.2202
0.0872 0.0149967 0.00956162 10.2985
0.088 -0.00113214 -0.00774377 10.3831
0.0888 -0.00345138 0.0015641 10.4649
0.0896 0.000542121 -0.00264114 10.5563
0.0904 -0.0288591 -0.016525 10.6396
0.0912 0.0183416 0.011608 10.7412
0.092 -0.0246069 -0.0301716 10.8207
0.0928 -0.00642994 0.00393548 10.9226
0.0936 -0.0152516 -0.0214252 11.0057
0.0944 -0.0100975 -0.0156922 11.0932
0.0952 -0.00718291 -0.00207597 11.1923
0.096 0.000488386 0.0037304 11.2865
0.0968 -0.0104443 -0.0133183 11.3737
0.0976 0.0019897 0.00469396 11.4775
0.0984 -0.00223504 -0.00156783 11.554
0.0992 -0.0261629 -0.0286115 11.6343
0.1 0.021172 0.0240132 11.7651
0.1008 0.000261314 -0.0123108 11.833
0.1016 0.0190486 0.0178117 11.9336
0.1024 -0.00754718 -0.00592168 12.0183
0.1032 -0.0195653 -0.0159926 12.1092
0.104 0.0032705 0.00091744 12.2112
0.1048 -0.00420229 -0.00553482 12.3023
0.1056 -0.000109005 0.00210215 12.3959
0.1064 -0.0155548 -0.0203736 12.4738
0.1072 0.0190919 0.0201155 12.5843
0.108 -0.0225389 -0.0262152 12.6599
0.1088 0.0104311 0.0135503 12.7676
0.1096 -0.00916527 -0.0149353 12.8518
0.1104 0.0207527 0.0170505 12.9599
0.1112 -0.000802958 -0.00495887 13.0465
0.112 -0.00369722 -0.00961478 13.1439
0.1128 -0.0146713 -0.004106 13.223
0.1136 0.00645 0.00405048 13.3285
0.1144 0.0143974 0.018505 13.4327
0.1152 0.00291611 0.00858127 13.5359
0.116 -0.00186453 -0.00687237 13.6217
0.1168 -0.00181791 -0.000142512 13.714
0.1176 0.0185694 0.0169928 13.8213
0.1184 -0.00347948 -0.00417386 13.8996
0.1192 0.0128164 0.0119196 14.0122
0.12 -0.00576269 -0.00751134 14.0973
0.1208 -0.0219893 -0.0156572 14.1889
0.1216 0.00500839 -0.00487143 14.2887
0.1224 0.00325508 0.00122701 14.3913
0.1232 0.0170807 0.0236434 14.4907
0.124 -0.0160696 -0.00983222 14.5704
0.1248 0.00385811 0.001625 14.6688
0.1256 -0.0253184 -0.0245889 14.7646
0.1264 0.0118335 0.0120708 14.8744
0.1272 0.0119443 0.00957485 14.9733
0.128 -0.0141986 -0.0110308 15.0629
0.1288 0.00607701 0.00862223 15.1558
0.1296 -0.01762 -0.00965144 15.2426
0.1304 0.0139936 0.013616 15.3484
0.1312 -0.0186335 -0.0194404 15.4238
0.132 0.00188931 0.010059 15.5103
0.1328 0.00309167 0.0139413 15.5926
0.1336 0.00808008 0.013041 15.6534
0.1344 -0.0100111 0.00551896 15.6756
0.1352 0.0119172 0.0184697 15.7046
0.136 -0.0238328 -0.00663372 15.6915
0.1368 -0.0108045 0.0066621 15.6206
0.1376 -0.017809 -0.0159439 15.4355
0.1384 0.00448622 0.01763 15.1388
0.1392 0.0181535 0.0368266 14.6827
0.14 -0.0148286 -0.00436435 14.0175
0.1408 0.00537232 0.0125952 13.087
0.1416 0.0233816 0.0181834 11.9056
0.1424 0.00893728 0.0153232 10.5615
0.1432 0.0168489 0.0278233 9.25164
0.144 -0.00206817 0.0305224 7.92079
0.1448 -0.014743 0.00883916 6.58321
0.1456 -0.0169449 0.0233522 5.43435
0.1464 -0.00281044 0.0546839 4.49915
0.1472 -0.0102357 0.016236 3.77583
0.148 0.00830839 0.0297506 3.3461
0.1488 -0.0059939 -0.0113019 3.05946
0.1496 0.00631545 0.00719141 2.93375
0.1504 -0.0100074 -0.0262768 2.82463
0.1512 -0.0032729 0.00153694 2.75355
0.152 0.0532067 0.0497983 2.72918
0.1528 -0.0408125 -0.00816376 2.6513
0.1536 0.0293226 0.0245995 2.70854
0.1544 0.0241403 0.0247881 2.70123
0.1552 -0.00623253 -0.0335194 2.66482
0.156 0.0155139 0.00830729 2.65139
0.1568 0.0163798 0.0149358 2.6186
0.1576 0.00619126 0.00488797 2.56354
0.1584 0.000640744 0.00526114 2.56878
0.1592 0.0218888 0.00765895 2.55434
0.16 -0.0326437 -0.0228013 2.54022
0.1608 0.00618539 0.00033936 2.58213
0.1616 0.0146836 -0.00714331 2.56729
0.1624 0.0146399 -0.00172367 2.58532
0.1632 0.0357408 0.0043838 2.64033
0.164 -0.00543733 -0.0117461 2.66348
0.1648 -0.0040666 0.00880901 2.6926
0.1656 -0.00427777 0.00250119 2.68862
0.1664 -0.0234171 -0.0119055 2.66877
0.1672 -0.0226048 0.00823854 2.70263
0.168 0.00959656 0.000293911 2.74918
0.1688 0.0147745 0.0201524 2.79971
0.1696 0.00934521 -0.00337762 2.8252
0.1704 0.0060116 0.012642 2.88508
0.1712 -0.00240243 0.00791714 2.94622
0.172 -0.0197091 -0.0293736 2.91943
0.1728 -0.010806 -0.0258827 2.91168
0.1736 -0.00914436 -0.0119806 2.92042
0.1744 0.0239015 0.0118233 2.97871
0.1752 0.00727035 -0.00407384 3.00128
0.176 0.00512949 -0.0104214 3.05346
0.1768 0.019948 0.00425149 3.07912
0.1776 0.0234923 0.0120371 3.06102
0.1784 0.00195048 -0.00397676 3.05418
0.1792 0.00227456 -0.0019743 3.03853
0.18 -0.0124313 0.0093242 3.08001
0.1808 -0.0073516 -0.00101951 3.12584
0.1816 0.00276442 0.0134464 3.16932
0.1824 0.0187601 0.042603 3.24503
0.1832 -0.010583 0.00719833 3.24488
0.184 0.001763 -0.00196569 3.30112
0.1848 -0.000441363 -0.0103226 3.32038
0.1856 0.0112813 0.0140517 3.3425
0.1864 -0.00473173 -0.00758106 3.31608
0.1872 -0.0290254 -0.0198406 3.29228
0.188 0.0110153 0.019345 3.32754
0.1888 0.0255685 0.0255264 3.34629
0.1896 -0.0159951 -0.00863162 3.31804
0.1904 -0.00526463 -0.00941653 3.35828
0.1912 -0.00330485 -0.00665008 3.3605
0.192 -0.00413635 0.00731351 3.38499
0.1928 -0.0133532 -0.00821594 3.37701
0.1936 0.0339364 0.0161453 3.38348
0.1944 -0.00311019 -0.0143766 3.3655
0.1952 -0.0112602 0.0149273 3.38554
0.196 0.0107849 0.0186812 3.37706
0.1968 -0.00577582 0.0235301 3.36552
0.1976 -0.0250391 -0.0108615 3.33371
0.1984 -0.003679 -0.00739625 3.36268
0.1992 -0.0101735 -0.0207523 3.3526
0.2 -0.0027284 0.00784605 3.33315